{
	"resourceType": "Bundle",
	"type": "transaction",
	"entry": [
		{
			"fullUrl": "urn:uuid:ae194285-d08e-46c7-a9a7-9a47624dd8aa",
			"resource": {
				"resourceType": "Group",
				"meta": {
					"profile": "http://dsf.dev/fhir/StructureDefinition/group"
				},
				"text": {
					"div": "This is the description",
					"status": "additional"
				},
				"type": "person",
				"actual": false,
				"extension": [
					{
						"url": "http://dsf.dev/fhir/StructureDefinition/extension-query",
						"valueExpression": [
							{
								"language": "application/x-aql-query",
								"expression": "SELECT COUNT(e) FROM EHR e"
							}
						]
					}
				]
			},
			"request": {
				"method": "POST",
				"url": "Group"
			}
		},
		{
			"fullUrl": "urn:uuid:ae194285-d08e-46c7-a9a7-9a47624dd8bb",
			"resource": {
				"resourceType": "Group",
				"meta": {
					"profile": "http://dsf.dev/fhir/StructureDefinition/group"
				},
				"text": {
					"div": "This is the description",
					"status": "additional"
				},
				"type": "person",
				"actual": false,
				"extension": [
					{
						"url": "http://dsf.dev/fhir/StructureDefinition/extension-query",
						"valueExpression": [
							{
								"language": "application/x-aql-query",
								"expression": "SELECT COUNT(e) FROM EHR e"
							}
						]
					}
				]
			},
			"request": {
				"method": "POST",
				"url": "Group"
			}
		},
		{
			"fullUrl": "urn:uuid:aaaaaaaa-aaaa-aaaa-aaaa-aaaaaaaaaaaa",
			"resource": {
				"resourceType": "ResearchStudy",
				"meta": {
					"profile": [ "http://dsf.dev/fhir/StructureDefinition/research-study" ]
				},
				"extension": [ {
					"url": "http://dsf.dev/fhir/StructureDefinition/extension-participating-dic",
					"valueReference": {
						"type": "Organization",
						"identifier": {
							"system": "http://dsf.dev/sid/organization-identifier",
							"value": "Test_Organization"
						}
					}
				}, {
					"url": "http://dsf.dev/fhir/StructureDefinition/extension-participating-ttp",
					"valueReference": {
						"type": "Organization",
						"identifier": {
							"system": "http://dsf.dev/sid/organization-identifier",
							"value": "External_Test_Organization"
						}
					}
				} ],
				"identifier": [ {
					"system": "http://dsf.dev/sid/research-study-identifier",
					"value": "886ec806-9bbb-4217-84d0-42f149c6767e"
				} ],
				"status": "active",
				"enrollment": [ {
					"reference": "urn:uuid:ae194285-d08e-46c7-a9a7-9a47624dd8aa"
				}, {
					"reference": "urn:uuid:ae194285-d08e-46c7-a9a7-9a47624dd8bb"
				} ]
			},
			"request": {
				"method": "POST",
				"url": "ResearchStudy"
			}
		},
		{
			"fullUrl": "urn:uuid:bbbbbbbb-bbbb-bbbb-bbbb-bbbbbbbbbbbb",
			"resource": {
				"resourceType": "Task",
				"instantiatesUri": "http://dsf.dev/bpe/Process/requestFeasibility/0.3.0",
				"status": "requested",
				"intent": "order",
				"requester": {
					"identifier": {
						"system": "http://dsf.dev/sid/organization-identifier",
						"value": "Test_Organization"
					},
					"type": "Organization"
				},
				"restriction": {
					"recipient": [
						{
							"identifier": {
								"system": "http://dsf.dev/sid/organization-identifier",
								"value": "Test_Organization"
							},
							"type": "Organization"
						}
					]
				},
				"input": [
					{
						"type": {
							"coding": [
								{
									"system": "http://dsf.dev/fhir/CodeSystem/bpmn-message",
									"code": "message-name"
								}
							]
						},
						"valueString": "requestFeasibilityMessage"
					},
					{
						"type": {
							"coding": [
								{
									"system": "http://dsf.dev/fhir/CodeSystem/feasibility",
									"code": "research-study-reference"
								}
							]
						},
						"valueReference": {
							"reference": "urn:uuid:aaaaaaaa-aaaa-aaaa-aaaa-aaaaaaaaaaaa"
						}
					},
					{
						"type": {
							"coding": [
								{
									"system": "http://dsf.dev/fhir/CodeSystem/feasibility",
									"code": "needs-record-linkage"
								}
							]
						},
						"valueBoolean": false
					},
					{
						"type": {
							"coding": [
								{
									"system": "http://dsf.dev/fhir/CodeSystem/feasibility",
									"code": "needs-consent-check"
								}
							]
						},
						"valueBoolean": false
					}
				]
			},
			"request": {
				"method": "POST",
				"url": "Task"
			}
		}
	]
}