<Bundle xmlns="http://hl7.org/fhir">
   <type value="transaction"/>
   <entry>
      <fullUrl value="urn:uuid:55901940-02db-40bf-9a6e-bdfdd0ddb7bf"/>
      <resource>
         <Organization xmlns="http://hl7.org/fhir">
            <meta>
               <profile value="http://dsf.dev/fhir/StructureDefinition/organization"/>
               <tag>
                  <system value="http://dsf.dev/fhir/CodeSystem/read-access-tag"/>
                  <code value="ALL"/>
               </tag>
            </meta>
            <extension url="http://dsf.dev/fhir/StructureDefinition/extension-certificate-thumbprint">
               <valueString value="${dev.dsf.fhir.server.organization.thumbprint}"/>
            </extension>
            <identifier>
               <system value="http://dsf.dev/sid/organization-identifier"/>
               <value value="${dev.dsf.fhir.server.organization.identifier.value}"/>
            </identifier>
            <active value="true"/>
            <name value="${dev.dsf.fhir.server.organization.name}"/>
            <endpoint>
               <reference value="urn:uuid:1712b523-1783-40fa-a317-375415686457"/>
               <type value="Endpoint"/>
            </endpoint>
         </Organization>
      </resource>
      <request>
         <method value="PUT"/>
         <url value="Organization?identifier=http://dsf.dev/sid/organization-identifier|${dev.dsf.fhir.server.organization.identifier.value}"/>
      </request>
   </entry>
   <entry>
      <fullUrl value="urn:uuid:1712b523-1783-40fa-a317-375415686457"/>
      <resource>
         <Endpoint xmlns="http://hl7.org/fhir">
            <meta>
               <profile value="http://dsf.dev/fhir/StructureDefinition/endpoint"/>
               <tag>
                  <system value="http://dsf.dev/fhir/CodeSystem/read-access-tag"/>
                  <code value="ALL"/>
               </tag>
            </meta>
            <identifier>
               <system value="http://dsf.dev/sid/endpoint-identifier"/>
               <value value="Test_MeDIC_2_Endpoint"/>
            </identifier>
            <status value="active"/>
            <connectionType>
               <system value="http://terminology.hl7.org/CodeSystem/endpoint-connection-type"/>
               <code value="hl7-fhir-rest"/>
            </connectionType>
            <name value="Test MeDIC 2 Endpoint"/>
            <managingOrganization>
               <reference value="urn:uuid:55901940-02db-40bf-9a6e-bdfdd0ddb7bf"/>
               <type value="Organization"/>
            </managingOrganization>
            <payloadType>
               <coding>
                  <system value="http://hl7.org/fhir/resource-types"/>
                  <code value="Task"/>
               </coding>
            </payloadType>
            <payloadMimeType value="application/fhir+json"/>
            <payloadMimeType value="application/fhir+xml"/>
            <address value="https://medic2/fhir"/>
         </Endpoint>
      </resource>
      <request>
         <method value="PUT"/>
         <url value="Endpoint?identifier=http://dsf.dev/sid/endpoint-identifier|Test_MeDIC_2_Endpoint"/>
      </request>
   </entry>
</Bundle>