<Bundle xmlns="http://hl7.org/fhir">
   <type value="transaction"></type>
   <entry>
      <fullUrl value="urn:uuid:bb73165c-c7b9-4342-8e28-531f07fa7735"></fullUrl>
      <resource>
         <Organization xmlns="http://hl7.org/fhir">
            <meta>
               <profile value="http://highmed.org/fhir/StructureDefinition/organization"></profile>
               <tag>
                  <system value="http://highmed.org/fhir/CodeSystem/read-access-tag"></system>
                  <code value="ALL"></code>
               </tag>
            </meta>
            <extension url="http://highmed.org/fhir/StructureDefinition/extension-certificate-thumbprint">
               <valueString value="a74e864a448e610302ea10b7456ed66a8b714232c81c8b4fdca40c3aeea75a1241b47dc1549f62d8a0904961593f7cb412672032335d85f8d686e4cb33a6b770"></valueString>
            </extension>
            <identifier>
               <system value="http://highmed.org/sid/organization-identifier"></system>
               <value value="Test_Organization"></value>
            </identifier>
            <active value="true"></active>
            <name value="Test Organization"></name>
            <endpoint>
               <reference value="urn:uuid:b879e904-d666-45de-a995-accdd4429b79"></reference>
               <type value="Endpoint"></type>
            </endpoint>
         </Organization>
      </resource>
      <request>
         <method value="POST"></method>
         <url value="Organization"></url>
         <ifNoneExist value="identifier=http://highmed.org/sid/organization-identifier|Test_Organization"></ifNoneExist>
      </request>
   </entry>
   <entry>
      <fullUrl value="urn:uuid:b879e904-d666-45de-a995-accdd4429b79"></fullUrl>
      <resource>
         <Endpoint xmlns="http://hl7.org/fhir">
            <meta>
               <profile value="http://highmed.org/fhir/StructureDefinition/endpoint"></profile>
               <tag>
                  <system value="http://highmed.org/fhir/CodeSystem/read-access-tag"></system>
                  <code value="ALL"></code>
               </tag>
            </meta>
            <identifier>
               <system value="http://highmed.org/sid/endpoint-identifier"></system>
               <value value="Test_Endpoint"></value>
            </identifier>
            <status value="active"></status>
            <connectionType>
               <system value="http://terminology.hl7.org/CodeSystem/endpoint-connection-type"></system>
               <code value="hl7-fhir-rest"></code>
            </connectionType>
            <name value="Test Endpoint"></name>
            <managingOrganization>
               <reference value="urn:uuid:bb73165c-c7b9-4342-8e28-531f07fa7735"></reference>
               <type value="Organization"></type>
            </managingOrganization>
            <payloadType>
               <coding>
                  <system value="http://hl7.org/fhir/resource-types"></system>
                  <code value="Task"></code>
               </coding>
            </payloadType>
            <payloadMimeType value="application/fhir+json"></payloadMimeType>
            <payloadMimeType value="application/fhir+xml"></payloadMimeType>
            <address value="https://localhost/fhir"></address>
         </Endpoint>
      </resource>
      <request>
         <method value="POST"></method>
         <url value="Endpoint"></url>
         <ifNoneExist value="identifier=http://highmed.org/sid/endpoint-identifier|Test_Endpoint"></ifNoneExist>
      </request>
   </entry>
   <entry>
      <fullUrl value="urn:uuid:c4a7b553-01b1-4b50-bcb3-1467f5ae6791"></fullUrl>
      <resource>
         <Organization xmlns="http://hl7.org/fhir">
            <meta>
               <profile value="http://highmed.org/fhir/StructureDefinition/organization-parent"></profile>
               <tag>
                  <system value="http://highmed.org/fhir/CodeSystem/read-access-tag"></system>
                  <code value="ALL"></code>
               </tag>
            </meta>
            <identifier>
               <system value="http://highmed.org/sid/organization-identifier"></system>
               <value value="Parent_Organization"></value>
            </identifier>
            <active value="true"></active>
            <name value="Parent Organization"></name>
         </Organization>
      </resource>
      <request>
         <method value="POST"></method>
         <url value="Organization"></url>
         <ifNoneExist value="identifier=http://highmed.org/sid/organization-identifier|Parent_Organization"></ifNoneExist>
      </request>
   </entry>
   <entry>
      <fullUrl value="urn:uuid:78eee72c-a682-4648-bcc9-909d7c2f2c84"></fullUrl>
      <resource>
         <OrganizationAffiliation xmlns="http://hl7.org/fhir">
            <meta>
               <profile value="http://highmed.org/fhir/StructureDefinition/organization-affiliation"></profile>
               <tag>
                  <system value="http://highmed.org/fhir/CodeSystem/read-access-tag"></system>
                  <code value="ALL"></code>
               </tag>
            </meta>
            <active value="true"></active>
            <organization>
               <reference value="urn:uuid:c4a7b553-01b1-4b50-bcb3-1467f5ae6791"></reference>
               <type value="Organization"></type>
            </organization>
            <participatingOrganization>
               <reference value="urn:uuid:bb73165c-c7b9-4342-8e28-531f07fa7735"></reference>
               <type value="Organization"></type>
            </participatingOrganization>
            <code>
               <coding>
                  <system value="http://highmed.org/fhir/CodeSystem/organization-type"></system>
                  <code value="MeDIC"></code>
               </coding>
               <coding>
                  <system value="http://highmed.org/fhir/CodeSystem/organization-type"></system>
                  <code value="COS"></code>
               </coding>
            </code>
            <endpoint>
               <reference value="urn:uuid:b879e904-d666-45de-a995-accdd4429b79"></reference>
               <type value="Endpoint"></type>
            </endpoint>
         </OrganizationAffiliation>
      </resource>
      <request>
         <method value="POST"></method>
         <url value="OrganizationAffiliation"></url>
         <ifNoneExist value="primary-organization:identifier=http://highmed.org/sid/organization-identifier|Parent_Organization&amp;participating-organization:identifier=http://highmed.org/sid/organization-identifier|Test_Organization"></ifNoneExist>
      </request>
   </entry>
</Bundle>