<Bundle xmlns="http://hl7.org/fhir">
   <type value="transaction"/>
   <entry>
      <fullUrl value="urn:uuid:bb73165c-c7b9-4342-8e28-531f07fa7735"/>
      <resource>
         <Organization xmlns="http://hl7.org/fhir">
            <meta>
               <profile value="http://dsf.dev/fhir/StructureDefinition/organization"/>
               <tag>
                  <system value="http://dsf.dev/fhir/CodeSystem/read-access-tag"/>
                  <code value="ALL"/>
               </tag>
            </meta>
            <extension url="http://dsf.dev/fhir/StructureDefinition/extension-certificate-thumbprint">
               <valueString value="${dev.dsf.fhir.server.organization.thumbprint}"/>
            </extension>
            <identifier>
               <system value="http://dsf.dev/sid/organization-identifier"/>
               <value value="${dev.dsf.fhir.server.organization.identifier.value}"/>
            </identifier>
            <active value="true"/>
            <name value="${dev.dsf.fhir.server.organization.name}"/>
            <endpoint>
               <reference value="urn:uuid:b879e904-d666-45de-a995-accdd4429b79"/>
               <type value="Endpoint"/>
            </endpoint>
         </Organization>
      </resource>
      <request>
         <method value="PUT"/>
         <url value="Organization?identifier=http://dsf.dev/sid/organization-identifier|${dev.dsf.fhir.server.organization.identifier.value}"/>
      </request>
   </entry>
   <entry>
      <fullUrl value="urn:uuid:cf62edc2-cc5d-43ed-ac0e-caf09f7326c3"/>
      <resource>
         <Organization xmlns="http://hl7.org/fhir">
            <meta>
               <profile value="http://dsf.dev/fhir/StructureDefinition/organization"/>
               <tag>
                  <system value="http://dsf.dev/fhir/CodeSystem/read-access-tag"/>
                  <code value="ALL"/>
               </tag>
            </meta>
            <extension url="http://dsf.dev/fhir/StructureDefinition/extension-certificate-thumbprint">
               <valueString value="${dev.dsf.fhir.server.organization.thumbprint.medic1}"/>
            </extension>
            <identifier>
               <system value="http://dsf.dev/sid/organization-identifier"/>
               <value value="Test_MeDIC_1"/>
            </identifier>
            <active value="true"/>
            <name value="Test MeDIC 1"/>
            <endpoint>
               <reference value="urn:uuid:6b405f8a-a201-475d-8dd7-4d73314855e1"/>
               <type value="Endpoint"/>
            </endpoint>
         </Organization>
      </resource>
      <request>
         <method value="PUT"/>
         <url value="Organization?identifier=http://dsf.dev/sid/organization-identifier|Test_MeDIC_1"/>
      </request>
   </entry>
   <entry>
      <fullUrl value="urn:uuid:55901940-02db-40bf-9a6e-bdfdd0ddb7bf"/>
      <resource>
         <Organization xmlns="http://hl7.org/fhir">
            <meta>
               <profile value="http://dsf.dev/fhir/StructureDefinition/organization"/>
               <tag>
                  <system value="http://dsf.dev/fhir/CodeSystem/read-access-tag"/>
                  <code value="ALL"/>
               </tag>
            </meta>
            <extension url="http://dsf.dev/fhir/StructureDefinition/extension-certificate-thumbprint">
               <valueString value="${dev.dsf.fhir.server.organization.thumbprint.medic2}"/>
            </extension>
            <identifier>
               <system value="http://dsf.dev/sid/organization-identifier"/>
               <value value="Test_MeDIC_2"/>
            </identifier>
            <active value="true"/>
            <name value="Test MeDIC 2"/>
            <endpoint>
               <reference value="urn:uuid:1712b523-1783-40fa-a317-375415686457"/>
               <type value="Endpoint"/>
            </endpoint>
         </Organization>
      </resource>
      <request>
         <method value="PUT"/>
         <url value="Organization?identifier=http://dsf.dev/sid/organization-identifier|Test_MeDIC_2"/>
      </request>
   </entry>
   <entry>
      <fullUrl value="urn:uuid:a49a45d2-88cc-4830-a028-413d68d9a439"/>
      <resource>
         <Organization xmlns="http://hl7.org/fhir">
            <meta>
               <profile value="http://dsf.dev/fhir/StructureDefinition/organization"/>
               <tag>
                  <system value="http://dsf.dev/fhir/CodeSystem/read-access-tag"/>
                  <code value="ALL"/>
               </tag>
            </meta>
            <extension url="http://dsf.dev/fhir/StructureDefinition/extension-certificate-thumbprint">
               <valueString value="${dev.dsf.fhir.server.organization.thumbprint.medic3}"/>
            </extension>
            <identifier>
               <system value="http://dsf.dev/sid/organization-identifier"/>
               <value value="Test_MeDIC_3"/>
            </identifier>
            <active value="true"/>
            <name value="Test MeDIC 3"/>
            <endpoint>
               <reference value="urn:uuid:1c3d45f9-5aa8-4979-892e-bf2d29b398e0"/>
               <type value="Endpoint"/>
            </endpoint>
         </Organization>
      </resource>
      <request>
         <method value="PUT"/>
         <url value="Organization?identifier=http://dsf.dev/sid/organization-identifier|Test_MeDIC_3"/>
      </request>
   </entry>
   <entry>
      <fullUrl value="urn:uuid:b879e904-d666-45de-a995-accdd4429b79"/>
      <resource>
         <Endpoint xmlns="http://hl7.org/fhir">
            <meta>
               <profile value="http://dsf.dev/fhir/StructureDefinition/endpoint"/>
               <tag>
                  <system value="http://dsf.dev/fhir/CodeSystem/read-access-tag"/>
                  <code value="ALL"/>
               </tag>
            </meta>
            <identifier>
               <system value="http://dsf.dev/sid/endpoint-identifier"/>
               <value value="Test_TTP_Endpoint"/>
            </identifier>
            <status value="active"/>
            <connectionType>
               <system value="http://terminology.hl7.org/CodeSystem/endpoint-connection-type"/>
               <code value="hl7-fhir-rest"/>
            </connectionType>
            <name value="Test TTP Endpoint"/>
            <managingOrganization>
               <reference value="urn:uuid:bb73165c-c7b9-4342-8e28-531f07fa7735"/>
               <type value="Organization"/>
            </managingOrganization>
            <payloadType>
               <coding>
                  <system value="http://hl7.org/fhir/resource-types"/>
                  <code value="Task"/>
               </coding>
            </payloadType>
            <payloadMimeType value="application/fhir+json"/>
            <payloadMimeType value="application/fhir+xml"/>
            <address value="https://ttp/fhir"/>
         </Endpoint>
      </resource>
      <request>
         <method value="PUT"/>
         <url value="Endpoint?identifier=http://dsf.dev/sid/endpoint-identifier|Test_TTP_Endpoint"/>
      </request>
   </entry>
   <entry>
      <fullUrl value="urn:uuid:6b405f8a-a201-475d-8dd7-4d73314855e1"/>
      <resource>
         <Endpoint xmlns="http://hl7.org/fhir">
            <meta>
               <profile value="http://dsf.dev/fhir/StructureDefinition/endpoint"/>
               <tag>
                  <system value="http://dsf.dev/fhir/CodeSystem/read-access-tag"/>
                  <code value="ALL"/>
               </tag>
            </meta>
            <identifier>
               <system value="http://dsf.dev/sid/endpoint-identifier"/>
               <value value="Test_MeDIC_1_Endpoint"/>
            </identifier>
            <status value="active"/>
            <connectionType>
               <system value="http://terminology.hl7.org/CodeSystem/endpoint-connection-type"/>
               <code value="hl7-fhir-rest"/>
            </connectionType>
            <name value="Test MeDIC 1 Endpoint"/>
            <managingOrganization>
               <reference value="urn:uuid:cf62edc2-cc5d-43ed-ac0e-caf09f7326c3"/>
               <type value="Organization"/>
            </managingOrganization>
            <payloadType>
               <coding>
                  <system value="http://hl7.org/fhir/resource-types"/>
                  <code value="Task"/>
               </coding>
            </payloadType>
            <payloadMimeType value="application/fhir+json"/>
            <payloadMimeType value="application/fhir+xml"/>
            <address value="https://medic1/fhir"/>
         </Endpoint>
      </resource>
      <request>
         <method value="PUT"/>
         <url value="Endpoint?identifier=http://dsf.dev/sid/endpoint-identifier|Test_MeDIC_1_Endpoint"/>
      </request>
   </entry>
   <entry>
      <fullUrl value="urn:uuid:1712b523-1783-40fa-a317-375415686457"/>
      <resource>
         <Endpoint xmlns="http://hl7.org/fhir">
            <meta>
               <profile value="http://dsf.dev/fhir/StructureDefinition/endpoint"/>
               <tag>
                  <system value="http://dsf.dev/fhir/CodeSystem/read-access-tag"/>
                  <code value="ALL"/>
               </tag>
            </meta>
            <identifier>
               <system value="http://dsf.dev/sid/endpoint-identifier"/>
               <value value="Test_MeDIC_2_Endpoint"/>
            </identifier>
            <status value="active"/>
            <connectionType>
               <system value="http://terminology.hl7.org/CodeSystem/endpoint-connection-type"/>
               <code value="hl7-fhir-rest"/>
            </connectionType>
            <name value="Test MeDIC 2 Endpoint"/>
            <managingOrganization>
               <reference value="urn:uuid:55901940-02db-40bf-9a6e-bdfdd0ddb7bf"/>
               <type value="Organization"/>
            </managingOrganization>
            <payloadType>
               <coding>
                  <system value="http://hl7.org/fhir/resource-types"/>
                  <code value="Task"/>
               </coding>
            </payloadType>
            <payloadMimeType value="application/fhir+json"/>
            <payloadMimeType value="application/fhir+xml"/>
            <address value="https://medic2/fhir"/>
         </Endpoint>
      </resource>
      <request>
         <method value="PUT"/>
         <url value="Endpoint?identifier=http://dsf.dev/sid/endpoint-identifier|Test_MeDIC_2_Endpoint"/>
      </request>
   </entry>
   <entry>
      <fullUrl value="urn:uuid:1c3d45f9-5aa8-4979-892e-bf2d29b398e0"/>
      <resource>
         <Endpoint xmlns="http://hl7.org/fhir">
            <meta>
               <profile value="http://dsf.dev/fhir/StructureDefinition/endpoint"/>
               <tag>
                  <system value="http://dsf.dev/fhir/CodeSystem/read-access-tag"/>
                  <code value="ALL"/>
               </tag>
            </meta>
            <identifier>
               <system value="http://dsf.dev/sid/endpoint-identifier"/>
               <value value="Test_MeDIC_3_Endpoint"/>
            </identifier>
            <status value="active"/>
            <connectionType>
               <system value="http://terminology.hl7.org/CodeSystem/endpoint-connection-type"/>
               <code value="hl7-fhir-rest"/>
            </connectionType>
            <name value="Test MeDIC 3 Endpoint"/>
            <managingOrganization>
               <reference value="urn:uuid:a49a45d2-88cc-4830-a028-413d68d9a439"/>
               <type value="Organization"/>
            </managingOrganization>
            <payloadType>
               <coding>
                  <system value="http://hl7.org/fhir/resource-types"/>
                  <code value="Task"/>
               </coding>
            </payloadType>
            <payloadMimeType value="application/fhir+json"/>
            <payloadMimeType value="application/fhir+xml"/>
            <address value="https://medic3/fhir"/>
         </Endpoint>
      </resource>
      <request>
         <method value="PUT"/>
         <url value="Endpoint?identifier=http://dsf.dev/sid/endpoint-identifier|Test_MeDIC_3_Endpoint"/>
      </request>
   </entry>
   <entry>
      <fullUrl value="urn:uuid:c4a7b553-01b1-4b50-bcb3-1467f5ae6791"/>
      <resource>
         <Organization xmlns="http://hl7.org/fhir">
            <meta>
               <profile value="http://dsf.dev/fhir/StructureDefinition/organization-parent"/>
               <tag>
                  <system value="http://dsf.dev/fhir/CodeSystem/read-access-tag"/>
                  <code value="ALL"/>
               </tag>
            </meta>
            <identifier>
               <system value="http://dsf.dev/sid/organization-identifier"/>
               <value value="highmed.org"/>
            </identifier>
            <active value="true"/>
            <name value="HiGHmed Consortium"/>
         </Organization>
      </resource>
      <request>
         <method value="POST"/>
         <url value="Organization"/>
         <ifNoneExist value="identifier=http://dsf.dev/sid/organization-identifier|highmed.org"/>
      </request>
   </entry>
   <entry>
      <fullUrl value="urn:uuid:6da23450-e2e2-49e1-8591-02c553d53e3b"/>
      <resource>
         <OrganizationAffiliation xmlns="http://hl7.org/fhir">
            <meta>
               <profile value="http://dsf.dev/fhir/StructureDefinition/organization-affiliation"/>
               <tag>
                  <system value="http://dsf.dev/fhir/CodeSystem/read-access-tag"/>
                  <code value="ALL"/>
               </tag>
            </meta>
            <active value="true"/>
            <organization>
               <reference value="urn:uuid:c4a7b553-01b1-4b50-bcb3-1467f5ae6791"/>
               <type value="Organization"/>
            </organization>
            <participatingOrganization>
               <reference value="urn:uuid:bb73165c-c7b9-4342-8e28-531f07fa7735"/>
               <type value="Organization"/>
            </participatingOrganization>
            <code>
               <coding>
                  <system value="http://dsf.dev/fhir/CodeSystem/organization-role"/>
                  <code value="TTP"/>
               </coding>
            </code>
            <code>
               <coding>
                  <system value="http://dsf.dev/fhir/CodeSystem/organization-role"/>
                  <code value="DTS"/>
               </coding>
            </code>
            <endpoint>
               <reference value="urn:uuid:b879e904-d666-45de-a995-accdd4429b79"/>
               <type value="Endpoint"/>
            </endpoint>
         </OrganizationAffiliation>
      </resource>
      <request>
         <method value="POST"/>
         <url value="OrganizationAffiliation"/>
         <ifNoneExist value="primary-organization:identifier=http://dsf.dev/sid/organization-identifier|highmed.org&amp;participating-organization:identifier=http://dsf.dev/sid/organization-identifier|Test_TTP"/>
      </request>
   </entry>
   <entry>
      <fullUrl value="urn:uuid:b617a27c-09de-4c7f-b085-9910ecec40ea"/>
      <resource>
         <OrganizationAffiliation xmlns="http://hl7.org/fhir">
            <meta>
               <profile value="http://dsf.dev/fhir/StructureDefinition/organization-affiliation"/>
               <tag>
                  <system value="http://dsf.dev/fhir/CodeSystem/read-access-tag"/>
                  <code value="ALL"/>
               </tag>
            </meta>
            <active value="true"/>
            <organization>
               <reference value="urn:uuid:c4a7b553-01b1-4b50-bcb3-1467f5ae6791"/>
               <type value="Organization"/>
            </organization>
            <participatingOrganization>
               <reference value="urn:uuid:cf62edc2-cc5d-43ed-ac0e-caf09f7326c3"/>
               <type value="Organization"/>
            </participatingOrganization>
            <code>
               <coding>
                  <system value="http://dsf.dev/fhir/CodeSystem/organization-role"/>
                  <code value="MeDIC"/>
               </coding>
            </code>
            <code>
               <coding>
                  <system value="http://dsf.dev/fhir/CodeSystem/organization-role"/>
                  <code value="COS"/>
               </coding>
            </code>
            <endpoint>
               <reference value="urn:uuid:6b405f8a-a201-475d-8dd7-4d73314855e1"/>
               <type value="Endpoint"/>
            </endpoint>
         </OrganizationAffiliation>
      </resource>
      <request>
         <method value="POST"/>
         <url value="OrganizationAffiliation"/>
         <ifNoneExist value="primary-organization:identifier=http://dsf.dev/sid/organization-identifier|highmed.org&amp;participating-organization:identifier=http://dsf.dev/sid/organization-identifier|Test_MeDIC_1"/>
      </request>
   </entry>
   <entry>
      <fullUrl value="urn:uuid:4f0de7e3-1cf9-4a3a-af4d-a3d100fec264"/>
      <resource>
         <OrganizationAffiliation xmlns="http://hl7.org/fhir">
            <meta>
               <profile value="http://dsf.dev/fhir/StructureDefinition/organization-affiliation"/>
               <tag>
                  <system value="http://dsf.dev/fhir/CodeSystem/read-access-tag"/>
                  <code value="ALL"/>
               </tag>
            </meta>
            <active value="true"/>
            <organization>
               <reference value="urn:uuid:c4a7b553-01b1-4b50-bcb3-1467f5ae6791"/>
               <type value="Organization"/>
            </organization>
            <participatingOrganization>
               <reference value="urn:uuid:55901940-02db-40bf-9a6e-bdfdd0ddb7bf"/>
               <type value="Organization"/>
            </participatingOrganization>
            <code>
               <coding>
                  <system value="http://dsf.dev/fhir/CodeSystem/organization-role"/>
                  <code value="MeDIC"/>
               </coding>
            </code>
            <code>
               <coding>
                  <system value="http://dsf.dev/fhir/CodeSystem/organization-role"/>
                  <code value="COS"/>
               </coding>
            </code>
            <endpoint>
               <reference value="urn:uuid:1712b523-1783-40fa-a317-375415686457"/>
               <type value="Endpoint"/>
            </endpoint>
         </OrganizationAffiliation>
      </resource>
      <request>
         <method value="POST"/>
         <url value="OrganizationAffiliation"/>
         <ifNoneExist value="primary-organization:identifier=http://dsf.dev/sid/organization-identifier|highmed.org&amp;participating-organization:identifier=http://dsf.dev/sid/organization-identifier|Test_MeDIC_2"/>
      </request>
   </entry>
   <entry>
      <fullUrl value="urn:uuid:d1e64572-04b3-47c8-b302-c1776b5e31c2"/>
      <resource>
         <OrganizationAffiliation xmlns="http://hl7.org/fhir">
            <meta>
               <profile value="http://dsf.dev/fhir/StructureDefinition/organization-affiliation"/>
               <tag>
                  <system value="http://dsf.dev/fhir/CodeSystem/read-access-tag"/>
                  <code value="ALL"/>
               </tag>
            </meta>
            <active value="true"/>
            <organization>
               <reference value="urn:uuid:c4a7b553-01b1-4b50-bcb3-1467f5ae6791"/>
               <type value="Organization"/>
            </organization>
            <participatingOrganization>
               <reference value="urn:uuid:a49a45d2-88cc-4830-a028-413d68d9a439"/>
               <type value="Organization"/>
            </participatingOrganization>
            <code>
               <coding>
                  <system value="http://dsf.dev/fhir/CodeSystem/organization-role"/>
                  <code value="MeDIC"/>
               </coding>
            </code>
            <code>
               <coding>
                  <system value="http://dsf.dev/fhir/CodeSystem/organization-role"/>
                  <code value="COS"/>
               </coding>
            </code>
            <endpoint>
               <reference value="urn:uuid:1c3d45f9-5aa8-4979-892e-bf2d29b398e0"/>
               <type value="Endpoint"/>
            </endpoint>
         </OrganizationAffiliation>
      </resource>
      <request>
         <method value="POST"/>
         <url value="OrganizationAffiliation"/>
         <ifNoneExist value="primary-organization:identifier=http://dsf.dev/sid/organization-identifier|highmed.org&amp;participating-organization:identifier=http://dsf.dev/sid/organization-identifier|Test_MeDIC_3"/>
      </request>
   </entry>
</Bundle>